<?xml version="1.0" encoding="UTF-8"?>
<Bundle xmlns="http://hl7.org/fhir">
   <type value="collection"/>
   <entry>
      <resource>
         <Bundle xmlns="http://hl7.org/fhir">
            <identifier>
               <system value="urn:ietf:rfc:3986"/>
               <value value="urn:uuid:ea04a143-6433-417e-ad99-d290c63a2c81"/>
            </identifier>
            <type value="document"/>
            <timestamp value="2022-02-19T16:33:30+00:00"/>
            <entry>
               <fullUrl value="urn:uuid:d93ed865-b291-4679-b2e6-c1f727f50aff"/>
               <resource>
                  <Composition xmlns="http://hl7.org/fhir">
                     <status value="final"/>
                     <type>
                        <coding>
                           <system value="http://snomed.info/sct"/>
                           <code value="4201000179104"/>
                           <display value="Imaging report (record artifact)"/>
                        </coding>
                     </type>
                     <category>
                        <coding>
                           <system value="http://snomed.info/sct"/>
                           <code value="721963009"/>
                           <display value="Order (record artifact)"/>
                        </coding>
                     </category>
                     <subject>
                        <reference value="urn:uuid:474b1ca8-df7f-45c1-98a2-79272a8a76ee"/>
                     </subject>
                     <date value="2022-02-19T16:33:30+00:00"/>
                     <title value="Anmeldung Radiologie"/>
                     <section>
                        <title value="Order-Referral"/>
                        <code>
                           <coding>
                              <system value="http://loinc.org"/>
                              <code value="93037-0"/>
                              <display value="Portable medical order form"/>
                           </coding>
                        </code>
                        <entry>
                           <reference value="urn:uuid:5b6883fa-d6e6-4262-82c1-65dbd137cd6a"/>
                        </entry>
                     </section>
                  </Composition>
               </resource>
            </entry>
            <entry>
               <fullUrl value="urn:uuid:474b1ca8-df7f-45c1-98a2-79272a8a76ee"/>
               <resource>
                  <Patient xmlns="http://hl7.org/fhir">
                     <name>
                        <family value="Egger"/>
                        <given value="Oliver"/>
                     </name>
                     <gender value="male"/>
                     <birthDate value="1971-04-12"/>
                  </Patient>
               </resource>
            </entry>
            <entry>
               <fullUrl value="urn:uuid:5b6883fa-d6e6-4262-82c1-65dbd137cd6a"/>
               <resource>
                  <ServiceRequest xmlns="http://hl7.org/fhir">
                     <insurance>
                        <reference value="urn:uuid:505739a6-c14d-486f-ae5c-8c74bae71593"/>
                     </insurance>
                  </ServiceRequest>
               </resource>
            </entry>
            <entry>
               <fullUrl value="urn:uuid:505739a6-c14d-486f-ae5c-8c74bae71593"/>
               <resource>
                  <Coverage xmlns="http://hl7.org/fhir">
                     <contained>
                        <Organization xmlns="http://hl7.org/fhir">
                           <id value="org"/>
                           <name value="KVG"/>
                        </Organization>
                     </contained>
                     <beneficiary>
                        <reference value="urn:uuid:474b1ca8-df7f-45c1-98a2-79272a8a76ee"/>
                     </beneficiary>
                     <payor>
                        <reference value="#org"/>
                     </payor>
                  </Coverage>
               </resource>
            </entry>
         </Bundle>
      </resource>
   </entry>
</Bundle>