{
    "resourceType": "Bundle",
    "id": "923f86f7-0736-4a20-bad4-500b323534dc",
    "identifier": {
        "system": "urn:ietf:rfc:3986",
        "value": "urn:uuid:923f86f7-0736-4a20-bad4-500b323534dc"
    },
    "type": "document",
    "timestamp": "2021-09-23T11:42:47+02:00",
    "entry": [{
            "fullUrl": "https://int.documedis.hcisolutions.ch/Composition/9e3b6209-383d-446e-a5b1-0b57a904bd65",
            "resource": {
                "resourceType": "Composition",
                "id": "9e3b6209-383d-446e-a5b1-0b57a904bd65",
                "language": "de-CH",
                "extension": [{
                        "url": "http://fhir.ch/ig/ch-core/StructureDefinition/ch-ext-epr-informationrecipient",
                        "valueReference": {
                            "reference": "Patient/442bae3f-ccde-4651-ab1c-405841341237"
                        }
                    }
                ],
                "identifier": {
                    "system": "urn:ietf:rfc:3986",
                    "value": "urn:uuid:923f86f7-0736-4a20-bad4-500b323534dc"
                },
                "status": "final",
                "type": {
                    "coding": [{
                            "system": "http://loinc.org",
                            "code": "56445-0",
                            "display": "Medication summary"
                        }, {
                            "system": "http://snomed.info/sct",
                            "code": "721912009",
                            "display": "Medication summary document (record artifact)"
                        }
                    ]
                },
                "subject": {
                    "reference": "Patient/442bae3f-ccde-4651-ab1c-405841341237"
                },
                "date": "2021-09-23T11:42:47.000+02:00",
                "author": [{
                        "reference": "Device/Converter-CHMED-EmedFhir"
                    }, {
                        "reference": "Practitioner/94fccbc3-1aed-4ff3-8739-2756c14dd4fd"
                    }
                ],
                "title": "Medikationsplan",
                "confidentiality": "N",
                "_confidentiality": {
                    "extension": [{
                            "url": "http://fhir.ch/ig/ch-core/StructureDefinition/ch-ext-epr-confidentialitycode",
                            "valueCodeableConcept": {
                                "coding": [{
                                        "system": "http://snomed.info/sct",
                                        "code": "17621005",
                                        "display": "Normally accessible"
                                    }
                                ]
                            }
                        }
                    ]
                },
                "custodian": {
                    "reference": "Organization/e82f995c-b359-4a6e-a7e8-b5cd02bf2c5e"
                },
                "section": [{
                        "title": "Medikamentenliste",
                        "code": {
                            "coding": [{
                                    "system": "http://loinc.org",
                                    "code": "10160-0",
                                    "display": "History of medication use"
                                }
                            ]
                        },
                        "entry": [{
                                "reference": "MedicationStatement/2c9b9fa9-33e3-4b52-9948-edfee28ca516"
                            }, {
                                "reference": "MedicationStatement/2d0a371e-16c6-4e62-9136-5dad68ef405e"
                            }
                        ]
                    }, {
                        "title": "Kommentar",
                        "code": {
                            "coding": [{
                                    "system": "http://loinc.org",
                                    "code": "48767-8",
                                    "display": "Annotation comment"
                                }
                            ]
                        },
                        "text": {
                            "status": "generated",
                            "div": "<div xmlns=\"http://www.w3.org/1999/xhtml\">Kommentar zu Medication Treatment</div>"
                        }
                    }, {
                        "title": "Original Darstellung",
                        "code": {
                            "coding": [{
                                    "system": "http://loinc.org",
                                    "code": "55108-5",
                                    "display": "Clinical presentation"
                                }
                            ]
                        },
                        "text": {
                            "status": "generated",
                            "div": "<div xmlns=\"http://www.w3.org/1999/xhtml\"><a href=\"Binary/0bcf8b95-1fa2-4a4e-8b1a-5e0fdb8a5c78\">Representation of the original view</a></div>"
                        },
                        "entry": [{
                                "reference": "Binary/0bcf8b95-1fa2-4a4e-8b1a-5e0fdb8a5c78"
                            }
                        ]
                    }
                ]
            }
        }, {
            "fullUrl": "https://int.documedis.hcisolutions.ch/Device/Converter-CHMED-EmedFhir",
            "resource": {
                "resourceType": "Device",
                "id": "Converter-CHMED-EmedFhir",
                "deviceName": [{
                        "name": "Documedis API - CHMED - EmedFHIR Converter",
                        "type": "user-friendly-name"
                    }
                ],
                "version": [{
                        "value": "1.0.0.0"
                    }
                ]
            }
        }, {
            "fullUrl": "https://int.documedis.hcisolutions.ch/Practitioner/94fccbc3-1aed-4ff3-8739-2756c14dd4fd",
            "resource": {
                "resourceType": "Practitioner",
                "id": "94fccbc3-1aed-4ff3-8739-2756c14dd4fd",
                "identifier": [{
                        "system": "urn:oid:2.51.1.3",
                        "value": "7601003169546"
                    }
                ],
                "name": [{
                        "family": "Ziegler",
                        "given": ["Michaela"]
                    }
                ]
            }
        }, {
            "fullUrl": "https://int.documedis.hcisolutions.ch/Patient/442bae3f-ccde-4651-ab1c-405841341237",
            "resource": {
                "resourceType": "Patient",
                "id": "442bae3f-ccde-4651-ab1c-405841341237",
                "identifier": [{
                        "system": "urn:oid:2.99",
                        "value": "urn:oid:2.999|11111111"
                    }
                ],
                "name": [{
                        "family": "Wegmüller",
                        "given": ["Monika"]
                    }
                ],
                "gender": "female",
                "birthDate": "1943-05-15",
                "address": [{
                        "line": ["Wiesenstr. 12"],
                        "city": "Zürich",
                        "postalCode": "8003"
                    }
                ],
                "communication": [{
                        "language": {
                            "coding": [{
                                    "system": "urn:ietf:bcp:47",
                                    "code": "de-CH"
                                }
                            ]
                        }
                    }
                ]
            }
        }, {
            "fullUrl": "https://int.documedis.hcisolutions.ch/Organization/e82f995c-b359-4a6e-a7e8-b5cd02bf2c5e",
            "resource": {
                "resourceType": "Organization",
                "id": "e82f995c-b359-4a6e-a7e8-b5cd02bf2c5e",
                "identifier": [{
                        "system": "urn:oid:2.51.1.3",
                        "value": "7601001362383"
                    }
                ],
                "name": "HCI Solutions AG",
                "address": [{
                        "line": ["Untermattweg 8"],
                        "city": "Bern 1",
                        "postalCode": "3000",
                        "country": "CH"
                    }
                ]
            }
        }, {
            "fullUrl": "https://int.documedis.hcisolutions.ch/MedicationStatement/2c9b9fa9-33e3-4b52-9948-edfee28ca516",
            "resource": {
                "resourceType": "MedicationStatement",
                "id": "2c9b9fa9-33e3-4b52-9948-edfee28ca516",
                "contained": [{
                        "resourceType": "Medication",
                        "id": "deca6da3-1f51-4010-afc4-8fa96bf59ee6",
                        "code": {
                            "coding": [{
                                    "system": "urn:oid:2.51.1.1",
                                    "code": "7680521101306",
                                    "display": "Beloc Zok Ret Tabl 50 mg 30 Stk"
                                }
                            ],
                            "text": "Beloc Zok Ret Tabl 50 mg 30 Stk"
                        },
                        "form": {
                            "coding": [{
                                    "system": "urn:oid:0.4.0.127.0.16.1.1.2.1",
                                    "code": "10226000",
                                    "display": "Retardtablette"
                                }
                            ],
                            "text": "Retardtablette"
                        },
                        "amount": {
                            "numerator": {
                                "value": 40,
                                "unit": "Stk",
                                "system": "http://unitsofmeasure.org",
                                "code": "{Piece}"
                            },
                            "denominator": {
                                "value": 1,
                                "unit": "Packung",
                                "system": "http://unitsofmeasure.org",
                                "code": "{Package}"
                            }
                        },
                        "ingredient": [{
                                "itemCodeableConcept": {
                                    "text": "Metoprolol tartrat"
                                },
                                "strength": {
                                    "numerator": {
                                        "value": 50,
                                        "unit": "mg",
                                        "system": "http://unitsofmeasure.org",
                                        "code": "mg"
                                    },
                                    "denominator": {
                                        "value": 1,
                                        "unit": "Stk",
                                        "system": "http://unitsofmeasure.org",
                                        "code": "{Piece}"
                                    }
                                }
                            }
                        ]
                    }
                ],
                "identifier": [{
                        "system": "urn:ietf:rfc:3986",
                        "value": "urn:uuid:2c9b9fa9-33e3-4b52-9948-edfee28ca516"
                    }
                ],
                "status": "completed",
                "medicationReference": {
                    "reference": "#deca6da3-1f51-4010-afc4-8fa96bf59ee6"
                },
                "subject": {
                    "reference": "Patient/442bae3f-ccde-4651-ab1c-405841341237"
                },
                "informationSource": {
                    "reference": "Practitioner/94fccbc3-1aed-4ff3-8739-2756c14dd4fd"
                },
                "reasonCode": [{
                        "text": "Bluthochdruck"
                    }
                ],
                "dosage": [{
                        "text": "Am Morgen 1 Retardtabletten. Am Abend 0.5 Retardtabletten\r\nMorgens 1 und abends 1/2 Tablette nehmen"
                    }, {
                        "sequence": 1,
                        "timing": {
                            "repeat": {
                                "boundsPeriod": {
                                    "start": "2012-02-04T00:00:00+01:00"
                                },
                                "when": ["MORN"]
                            }
                        },
                        "route": {
                            "coding": [{
                                    "system": "urn:oid:0.4.0.127.0.16.1.1.2.1",
                                    "code": "20053000",
                                    "display": "zum Einnehmen"
                                }
                            ]
                        },
                        "doseAndRate": [{
                                "doseQuantity": {
                                    "value": 1,
                                    "unit": "Stk",
                                    "system": "http://unitsofmeasure.org",
                                    "code": "{Piece}"
                                }
                            }
                        ]
                    }, {
                        "sequence": 2,
                        "timing": {
                            "repeat": {
                                "boundsPeriod": {
                                    "start": "2012-02-04T00:00:00+01:00"
                                },
                                "when": ["EVE"]
                            }
                        },
                        "route": {
                            "coding": [{
                                    "system": "urn:oid:0.4.0.127.0.16.1.1.2.1",
                                    "code": "20053000",
                                    "display": "zum Einnehmen"
                                }
                            ]
                        },
                        "doseAndRate": [{
                                "doseQuantity": {
                                    "value": 0.5,
                                    "unit": "Stk",
                                    "system": "http://unitsofmeasure.org",
                                    "code": "{Piece}"
                                }
                            }
                        ]
                    }
                ]
            }
        }, {
            "fullUrl": "https://int.documedis.hcisolutions.ch/MedicationStatement/2d0a371e-16c6-4e62-9136-5dad68ef405e",
            "resource": {
                "resourceType": "MedicationStatement",
                "id": "2d0a371e-16c6-4e62-9136-5dad68ef405e",
                "contained": [{
                        "resourceType": "Medication",
                        "id": "42316d29-1476-4c4f-a864-a1ecfff54c7d",
                        "code": {
                            "coding": [{
                                    "system": "urn:oid:2.51.1.1",
                                    "code": "7680500440334",
                                    "display": "Norvasc Tabl 10 mg 30 Stk"
                                }
                            ],
                            "text": "Norvasc Tabl 10 mg 30 Stk"
                        },
                        "form": {
                            "coding": [{
                                    "system": "urn:oid:0.4.0.127.0.16.1.1.2.1",
                                    "code": "10219000",
                                    "display": "Tablette"
                                }
                            ],
                            "text": "Tablette"
                        },
                        "amount": {
                            "numerator": {
                                "value": 30,
                                "unit": "Stk",
                                "system": "http://unitsofmeasure.org",
                                "code": "{Piece}"
                            },
                            "denominator": {
                                "value": 1,
                                "unit": "Packung",
                                "system": "http://unitsofmeasure.org",
                                "code": "{Package}"
                            }
                        },
                        "ingredient": [{
                                "itemCodeableConcept": {
                                    "coding": [{
                                            "system": "http://snomed.info/sct",
                                            "code": "386864001",
                                            "display": "Amlodipine"
                                        }
                                    ],
                                    "text": "Amlodipin"
                                },
                                "strength": {
                                    "numerator": {
                                        "value": 10,
                                        "unit": "mg",
                                        "system": "http://unitsofmeasure.org",
                                        "code": "mg"
                                    },
                                    "denominator": {
                                        "value": 1,
                                        "unit": "Stk",
                                        "system": "http://unitsofmeasure.org",
                                        "code": "{Piece}"
                                    }
                                }
                            }
                        ]
                    }
                ],
                "identifier": [{
                        "system": "urn:ietf:rfc:3986",
                        "value": "urn:uuid:2d0a371e-16c6-4e62-9136-5dad68ef405e"
                    }
                ],
                "status": "completed",
                "medicationReference": {
                    "reference": "#42316d29-1476-4c4f-a864-a1ecfff54c7d"
                },
                "subject": {
                    "reference": "Patient/442bae3f-ccde-4651-ab1c-405841341237"
                },
                "informationSource": {
                    "reference": "Practitioner/94fccbc3-1aed-4ff3-8739-2756c14dd4fd"
                },
                "reasonCode": [{
                        "text": "Bluthochdruck"
                    }
                ],
                "dosage": [{
                        "text": "Am Morgen 1 Tabletten. Am Abend 1 Tabletten\r\nMorgens und abends je 1 Tablette nehmen"
                    }, {
                        "timing": {
                            "repeat": {
                                "boundsPeriod": {
                                    "start": "2012-02-04T00:00:00+01:00"
                                },
                                "when": ["MORN", "EVE"]
                            }
                        },
                        "route": {
                            "coding": [{
                                    "system": "urn:oid:0.4.0.127.0.16.1.1.2.1",
                                    "code": "20053000",
                                    "display": "zum Einnehmen"
                                }
                            ]
                        },
                        "doseAndRate": [{
                                "doseQuantity": {
                                    "value": 1,
                                    "unit": "Stk",
                                    "system": "http://unitsofmeasure.org",
                                    "code": "{Piece}"
                                }
                            }
                        ]
                    }
                ]
            }
        }, {
            "fullUrl": "https://int.documedis.hcisolutions.ch/Binary/0bcf8b95-1fa2-4a4e-8b1a-5e0fdb8a5c78",
            "resource": {
                "resourceType": "Binary",
                "id": "0bcf8b95-1fa2-4a4e-8b1a-5e0fdb8a5c78",
                "language": "de-CH",
                "contentType": "application/pdf",
                "data": ""
            }
        }
    ]
}
