{
  "resourceType": "ChargeItem",
  "id": "8cC5d1e4-182f-4905-93cc-4ba5c041755f",
  "contained": [
    {
      "resourceType": "Patient",
      "id": "MaxComplete",
      "identifier": [
        {
          "type": {
            "coding": [
              {
                "system": "http://terminology.hl7.org/CodeSystem/v2-0203",
                "code": "MR",
                "display": "Medical record number"
              }
            ]
          },
          "system": "http://www.example.ch/patienteniddomain",
          "value": "Patienten-ID"
        }
      ],
      "name": [
        {
          "family": "Patienten-Name",
          "given": [
            "Patienten-Vorname"
          ]
        }
      ],
      "gender": "male",
      "birthDate": "1950-01-01"
    },
    {
      "resourceType": "Encounter",
      "id": "Visit",
      "extension": [
        {
          "url": "http://fhir.ch/ig/ch-alis/StructureDefinition/ch-alis-ext-termination",
          "extension": [
            {
              "url": "TerminationVisit",
              "valueDate": "2017-08-31"
            },
            {
              "url": "TerminationReason",
              "valueString": "Grund für Fallabschluss"
            }
          ]
        }
      ],
      "identifier": [
        {
          "type": {
            "coding": [
              {
                "system": "http://terminology.hl7.org/CodeSystem/v2-0203",
                "code": "VN",
                "display": "Visit number"
              }
            ]
          },
          "system": "http://www.example.ch/fallnummerdomain",
          "value": "eindeutige Fall-Identifikation"
        }
      ],
      "status": "finished",
      "class": {
        "system": "http://terminology.hl7.org/CodeSystem/v3-ActCode",
        "code": "IMP",
        "display": "inpatient encounter"
      },
      "subject": {
        "reference": "#MaxComplete"
      },
      "diagnosis": [
        {
          "condition": {
            "reference": "#Diagnosis"
          },
          "use": {
            "text": "Eintrittsdiagnose"
          }
        }
      ]
    },
    {
      "resourceType": "Condition",
      "id": "Diagnosis",
      "code": {
        "coding": [
          {
            "system": "http://www.example.com/CHOP",
            "code": "99.99"
          }
        ]
      },
      "subject": {
        "reference": "#MaxComplete"
      }
    }
  ],
  "extension": [
    {
      "url": "http://fhir.ch/ig/ch-alis/StructureDefinition/ch-alis-ext-sessionid",
      "valueString": "1"
    },
    {
      "url": "http://fhir.ch/ig/ch-alis/StructureDefinition/ch-alis-ext-orderid",
      "valueString": "16595790-a8c1-43e1-b785-bc81f3926482"
    },
    {
      "url": "http://fhir.ch/ig/ch-alis/StructureDefinition/ch-alis-ext-form",
      "valueString": "a1b2c3"
    },
    {
      "url": "http://fhir.ch/ig/ch-alis/StructureDefinition/ch-alis-ext-parameterv40",
      "extension": [
        {
          "url": "ParamTyp",
          "valueCodeableConcept": {
            "coding": [
              {
                "system": "http://fhir.ch/ig/ch-alis/CodeSystem/ch-alis-paramtyp",
                "code": "Duration"
              }
            ]
          }
        },
        {
          "url": "ParamValue",
          "valueString": "25"
        }
      ]
    },
    {
      "url": "http://fhir.ch/ig/ch-alis/StructureDefinition/ch-alis-ext-parameterv40",
      "extension": [
        {
          "url": "ParamTyp",
          "valueCodeableConcept": {
            "text": "individuell vereinbart"
          }
        },
        {
          "url": "ParamValue",
          "valueString": "beliebige Information"
        }
      ]
    }
  ],
  "status": "billable",
  "code": {
    "coding": [
      {
        "system": "http://fhir.ch/ig/ch-alis/CodeSystem/tbd",
        "code": "00.0010"
      }
    ]
  },
  "subject": {
    "reference": "#MaxComplete"
  },
  "context": {
    "reference": "#Visit"
  },
  "occurrenceDateTime": "2017-08-30T00:00:00-01:00",
  "performer": [
    {
      "function": {
        "coding": [
          {
            "system": "http://fhir.ch/ig/ch-alis/CodeSystem/ch-alis-persontyp",
            "code": "ResponsiblePhysician"
          }
        ]
      },
      "actor": {
        "display": "ID der Person"
      }
    },
    {
      "function": {
        "coding": [
          {
            "system": "http://fhir.ch/ig/ch-alis/CodeSystem/ch-alis-persontyp",
            "code": "ProvidingPhysician"
          }
        ]
      },
      "actor": {
        "display": "ID der Person"
      }
    }
  ],
  "performingOrganization": {
    "display": "1012"
  },
  "costCenter": {
    "display": "ABCD"
  },
  "quantity": {
    "value": 1
  },
  "enterer": {
    "display": "Kennung erfassender Benutzer im senden System"
  },
  "enteredDate": "2017-08-30T10:17:37-01:00"
}